{
    "resourceType": "Bundle",
    "id": "ca5d071a-02f5-4905-8331-e1e314e65875",
    "meta": {
        "lastUpdated": "2026-02-26T14:14:48.077+00:00"
    },
    "type": "searchset",
    "total": 1,
    "link": [
        {
            "relation": "self",
            "url": "https://hapi.fhir.org/baseR4/List?_include=*&patient=Patient%2FAt-Emed-Example-Patient-01"
        }
    ],
    "entry": [
        {
            "fullUrl": "https://hapi.fhir.org/baseR4/List/At-Emed-Journey-List-Medikationsplan-01",
            "resource": {
                "resourceType": "List",
                "id": "At-Emed-Journey-List-Medikationsplan-01",
                "meta": {
                    "versionId": "4",
                    "lastUpdated": "2026-02-26T14:14:26.550+00:00",
                    "source": "#5mTGf5K1TZaMcrvv",
                    "profile": [
                        "https://fhir.hl7.at/elga/emed/r4/StructureDefinition/at-emed-list-medikationsplan"
                    ]
                },
                "status": "current",
                "mode": "working",
                "code": {
                    "coding": [
                        {
                            "system": "http://snomed.info/sct",
                            "code": "736378000",
                            "display": "Medikationsplan"
                        }
                    ]
                },
                "subject": {
                    "reference": "Patient/At-Emed-Example-Patient-01"
                },
                "date": "2026-01-28T08:00:00+11:00",
                "source": {
                    "reference": "Practitioner/At-Emed-Example-Practitioner-01"
                },
                "orderedBy": {
                    "coding": [
                        {
                            "system": "http://terminology.hl7.org/CodeSystem/list-order",
                            "code": "user"
                        }
                    ]
                },
                "emptyReason": {
                    "coding": [
                        {
                            "system": "http://terminology.hl7.org/CodeSystem/list-empty-reason",
                            "code": "notstarted"
                        }
                    ]
                }
            },
            "search": {
                "mode": "match"
            }
        },
        {
            "fullUrl": "https://hapi.fhir.org/baseR4/Practitioner/At-Emed-Example-Practitioner-01",
            "resource": {
                "resourceType": "Practitioner",
                "id": "At-Emed-Example-Practitioner-01",
                "meta": {
                    "versionId": "1",
                    "lastUpdated": "2026-02-25T12:22:16.295+00:00",
                    "source": "#c8Cgrdm9C7EMNx8h",
                    "profile": [
                        "http://hl7.at/fhir/HL7ATCoreProfiles/4.0.1/StructureDefinition/at-core-practitioner"
                    ]
                },
                "identifier": [
                    {
                        "system": "urn:ietf:rfc:3986",
                        "value": "urn:oid:1.2.40.0.34.99.4613.4",
                        "assigner": {
                            "display": "Bundesministerium für Gesundheit"
                        }
                    },
                    {
                        "system": "urn:oid:1.2.40.0.10.1.4.3.2",
                        "value": "987654321",
                        "assigner": {
                            "display": "Dachverband der österreichischen Sozialversicherungsträger"
                        }
                    }
                ],
                "active": true,
                "name": [
                    {
                        "family": "Musterärztin",
                        "given": [
                            "Melanie"
                        ],
                        "prefix": [
                            "Prof. Dr."
                        ]
                    }
                ],
                "telecom": [
                    {
                        "system": "email",
                        "value": "office@musterpraxis.at",
                        "use": "work"
                    },
                    {
                        "system": "phone",
                        "value": "+436500987654321",
                        "use": "work"
                    }
                ],
                "address": [
                    {
                        "use": "work",
                        "type": "both",
                        "line": [
                            "Mozartgasse 8 Stiege 2"
                        ],
                        "_line": [
                            {
                                "extension": [
                                    {
                                        "url": "http://hl7.org/fhir/StructureDefinition/iso21090-ADXP-streetName",
                                        "valueString": "Mozartgasse"
                                    },
                                    {
                                        "url": "http://hl7.org/fhir/StructureDefinition/iso21090-ADXP-houseNumber",
                                        "valueString": "8"
                                    },
                                    {
                                        "url": "http://hl7.org/fhir/StructureDefinition/iso21090-ADXP-additionalLocator",
                                        "valueString": "Stiege 2"
                                    },
                                    {
                                        "url": "http://hl7.at/fhir/HL7ATCoreProfiles/4.0.1/StructureDefinition/at-core-ext-address-additionalInformation",
                                        "valueString": "Barrierefreier Zugang"
                                    }
                                ]
                            }
                        ],
                        "city": "St. Wolfgang",
                        "state": "Salzburg",
                        "postalCode": "5350",
                        "country": "AUT"
                    }
                ],
                "gender": "female"
            },
            "search": {
                "mode": "include"
            }
        },
        {
            "fullUrl": "https://hapi.fhir.org/baseR4/Patient/At-Emed-Example-Patient-01",
            "resource": {
                "resourceType": "Patient",
                "id": "At-Emed-Example-Patient-01",
                "meta": {
                    "versionId": "1",
                    "lastUpdated": "2026-02-25T12:19:41.816+00:00",
                    "source": "#X5XffmjRqrG39xzD",
                    "profile": [
                        "http://hl7.at/fhir/HL7ATCoreProfiles/4.0.1/StructureDefinition/at-core-patient",
                        "http://hl7.at/fhir/HL7ATCoreProfiles/5.0.0/StructureDefinition/at-core-patient"
                    ]
                },
                "extension": [
                    {
                        "url": "http://hl7.at/fhir/HL7ATCoreProfiles/5.0.0/StructureDefinition/at-core-ext-patient-religion",
                        "extension": [
                            {
                                "url": "code",
                                "valueCodeableConcept": {
                                    "coding": [
                                        {
                                            "system": "https://termgit.elga.gv.at/CodeSystem/hl7-at-religionaustria",
                                            "code": "162",
                                            "display": "Pastafarianismus"
                                        }
                                    ]
                                }
                            }
                        ]
                    },
                    {
                        "url": "http://hl7.org/fhir/StructureDefinition/patient-citizenship",
                        "extension": [
                            {
                                "url": "code",
                                "valueCodeableConcept": {
                                    "coding": [
                                        {
                                            "system": "https://termgit.elga.gv.at/CodeSystem/iso-3166-1-alpha-3",
                                            "code": "AUT",
                                            "display": "Österreich"
                                        }
                                    ]
                                }
                            }
                        ]
                    }
                ],
                "identifier": [
                    {
                        "type": {
                            "coding": [
                                {
                                    "system": "http://terminology.hl7.org/CodeSystem/v2-0203",
                                    "code": "SS",
                                    "display": "Social Security number"
                                }
                            ]
                        },
                        "system": "urn:oid:1.2.40.0.10.1.4.3.1",
                        "value": "1234010100",
                        "assigner": {
                            "display": "Dachverband der österreichischen Sozialversicherungsträger"
                        }
                    },
                    {
                        "type": {
                            "coding": [
                                {
                                    "system": "http://terminology.hl7.org/CodeSystem/v2-0203",
                                    "code": "NI",
                                    "display": "National unique individual identifier"
                                }
                            ]
                        },
                        "system": "urn:oid:1.2.40.0.10.2.1.1.149",
                        "value": "GH:oeLdSEb0l+8kSdJWjOYyYmnYki0=",
                        "assigner": {
                            "display": "Bundesministerium für Inneres"
                        }
                    },
                    {
                        "type": {
                            "coding": [
                                {
                                    "system": "http://terminology.hl7.org/CodeSystem/v2-0203",
                                    "code": "PI",
                                    "display": "Patient internal identifier"
                                }
                            ]
                        },
                        "system": "urn:oid:1.2.3.4.5",
                        "value": "0815",
                        "assigner": {
                            "display": "Ein GDA in Österreich"
                        }
                    }
                ],
                "name": [
                    {
                        "family": "Mustermann",
                        "given": [
                            "Max"
                        ],
                        "prefix": [
                            "DI"
                        ]
                    }
                ],
                "telecom": [
                    {
                        "system": "email",
                        "value": "office@hl7.at",
                        "use": "work"
                    },
                    {
                        "system": "phone",
                        "value": "+436501234567890",
                        "use": "home"
                    }
                ],
                "gender": "male",
                "birthDate": "1900-01-01",
                "address": [
                    {
                        "use": "home",
                        "type": "both",
                        "line": [
                            "Landstrasse 1 Stock 9 Tür 42"
                        ],
                        "_line": [
                            {
                                "extension": [
                                    {
                                        "url": "http://hl7.org/fhir/StructureDefinition/iso21090-ADXP-streetName",
                                        "valueString": "Landstrasse"
                                    },
                                    {
                                        "url": "http://hl7.org/fhir/StructureDefinition/iso21090-ADXP-houseNumber",
                                        "valueString": "1"
                                    },
                                    {
                                        "url": "http://hl7.org/fhir/StructureDefinition/iso21090-ADXP-additionalLocator",
                                        "valueString": "Stock 9 Tür 42"
                                    },
                                    {
                                        "url": "http://hl7.at/fhir/HL7ATCoreProfiles/5.0.0/StructureDefinition/at-core-ext-address-additionalInformation",
                                        "valueString": "Lift vorhanden"
                                    }
                                ]
                            }
                        ],
                        "city": "Linz",
                        "state": "Oberösterreich",
                        "postalCode": "4020",
                        "country": "AUT"
                    }
                ]
            },
            "search": {
                "mode": "include"
            }
        }
    ]
}