{
    "resourceType": "Bundle",
    "id": "c03c901a-d001-448a-9636-ec8dd8341e0c",
    "meta": {
        "lastUpdated": "2026-02-19T15:42:45.452+00:00"
    },
    "type": "searchset",
    "total": 1,
    "link": [
        {
            "relation": "self",
            "url": "https://hapi.fhir.org/baseR4/List?_include=*&patient=Patient%2FAtEmedExamplePatient01"
        }
    ],
    "entry": [
        {
            "fullUrl": "https://hapi.fhir.org/baseR4/List/AtEmedJourneyListMedikationsplan01",
            "resource": {
                "resourceType": "List",
                "id": "AtEmedJourneyListMedikationsplan01",
                "meta": {
                    "versionId": "8",
                    "lastUpdated": "2026-02-19T15:38:42.742+00:00",
                    "source": "#1Yav09tI8oDmLL50",
                    "profile": [
                        "https://fhir.hl7.at/elga/emed/r4/StructureDefinition/at-emed-list-medikationsplan"
                    ]
                },
                "status": "current",
                "mode": "working",
                "code": {
                    "coding": [
                        {
                            "system": "http://snomed.info/sct",
                            "code": "736378000",
                            "display": "Medikationsplan"
                        }
                    ]
                },
                "subject": {
                    "reference": "Patient/AtEmedExamplePatient01"
                },
                "date": "2026-01-28T08:00:00+00:00",
                "source": {
                    "reference": "Practitioner/AtEmedExamplePractitioner01"
                },
                "orderedBy": {
                    "coding": [
                        {
                            "system": "http://terminology.hl7.org/CodeSystem/list-order",
                            "code": "user"
                        }
                    ]
                },
                "entry": [
                    {
                        "flag": {
                            "coding": [
                                {
                                    "system": "urn:oid:1.2.36.1.2001.1001.101.104.16592",
                                    "code": "04",
                                    "display": "Prescribed"
                                }
                            ]
                        },
                        "date": "2026-01-28T08:00:00+00:00",
                        "item": {
                            "reference": "MedicationRequest/AtEmedJourneyMrPlaneintrag0101"
                        }
                    },
                    {
                        "flag": {
                            "coding": [
                                {
                                    "system": "urn:oid:1.2.36.1.2001.1001.101.104.16592",
                                    "code": "04",
                                    "display": "Prescribed"
                                }
                            ]
                        },
                        "date": "2026-01-28T08:00:00+00:00",
                        "item": {
                            "reference": "MedicationRequest/AtEmedJourneyMrPlaneintrag0102"
                        }
                    }
                ]
            },
            "search": {
                "mode": "match"
            }
        },
        {
            "fullUrl": "https://hapi.fhir.org/baseR4/Patient/AtEmedExamplePatient01",
            "resource": {
                "resourceType": "Patient",
                "id": "AtEmedExamplePatient01",
                "meta": {
                    "versionId": "2",
                    "lastUpdated": "2026-02-18T10:21:56.923+00:00",
                    "source": "#QBHucWHZegVnHMOm",
                    "profile": [
                        "http://hl7.at/fhir/HL7ATCoreProfiles/4.0.1/StructureDefinition/at-core-patient"
                    ]
                },
                "extension": [
                    {
                        "url": "http://hl7.at/fhir/HL7ATCoreProfiles/5.0.0/StructureDefinition/at-core-ext-patient-religion",
                        "extension": [
                            {
                                "url": "code",
                                "valueCodeableConcept": {
                                    "coding": [
                                        {
                                            "system": "https://termgit.elga.gv.at/CodeSystem/hl7-at-religionaustria",
                                            "code": "162",
                                            "display": "Pastafarianismus"
                                        }
                                    ]
                                }
                            }
                        ]
                    },
                    {
                        "url": "http://hl7.org/fhir/StructureDefinition/patient-citizenship",
                        "extension": [
                            {
                                "url": "code",
                                "valueCodeableConcept": {
                                    "coding": [
                                        {
                                            "system": "https://termgit.elga.gv.at/CodeSystem/iso-3166-1-alpha-3",
                                            "code": "AUT",
                                            "display": "Österreich"
                                        }
                                    ]
                                }
                            }
                        ]
                    }
                ],
                "identifier": [
                    {
                        "type": {
                            "coding": [
                                {
                                    "system": "http://terminology.hl7.org/CodeSystem/v2-0203",
                                    "code": "SS",
                                    "display": "Social Security number"
                                }
                            ]
                        },
                        "system": "urn:oid:1.2.40.0.10.1.4.3.1",
                        "value": "1234010100",
                        "assigner": {
                            "display": "Dachverband der österreichischen Sozialversicherungsträger"
                        }
                    },
                    {
                        "type": {
                            "coding": [
                                {
                                    "system": "http://terminology.hl7.org/CodeSystem/v2-0203",
                                    "code": "NI",
                                    "display": "National unique individual identifier"
                                }
                            ]
                        },
                        "system": "urn:oid:1.2.40.0.10.2.1.1.149",
                        "value": "GH:oeLdSEb0l+8kSdJWjOYyYmnYki0=",
                        "assigner": {
                            "display": "Bundesministerium für Inneres"
                        }
                    },
                    {
                        "type": {
                            "coding": [
                                {
                                    "system": "http://terminology.hl7.org/CodeSystem/v2-0203",
                                    "code": "PI",
                                    "display": "Patient internal identifier"
                                }
                            ]
                        },
                        "system": "urn:oid:1.2.3.4.5",
                        "value": "0815",
                        "assigner": {
                            "display": "Ein GDA in Österreich"
                        }
                    }
                ],
                "name": [
                    {
                        "family": "Mustermann",
                        "given": [
                            "Maxima"
                        ],
                        "prefix": [
                            "DI"
                        ]
                    }
                ],
                "telecom": [
                    {
                        "system": "email",
                        "value": "office@hl7.at",
                        "use": "work"
                    },
                    {
                        "system": "phone",
                        "value": "+436501234567890",
                        "use": "home"
                    }
                ],
                "gender": "male",
                "birthDate": "1900-01-01",
                "address": [
                    {
                        "use": "home",
                        "type": "both",
                        "line": [
                            "Landstrasse 1 Stock 9 Tür 42"
                        ],
                        "_line": [
                            {
                                "extension": [
                                    {
                                        "url": "http://hl7.org/fhir/StructureDefinition/iso21090-ADXP-streetName",
                                        "valueString": "Landstrasse"
                                    },
                                    {
                                        "url": "http://hl7.org/fhir/StructureDefinition/iso21090-ADXP-houseNumber",
                                        "valueString": "1"
                                    },
                                    {
                                        "url": "http://hl7.org/fhir/StructureDefinition/iso21090-ADXP-additionalLocator",
                                        "valueString": "Stock 9 Tür 42"
                                    },
                                    {
                                        "url": "http://hl7.at/fhir/HL7ATCoreProfiles/5.0.0/StructureDefinition/at-core-ext-address-additionalInformation",
                                        "valueString": "Lift vorhanden"
                                    }
                                ]
                            }
                        ],
                        "city": "Linz",
                        "state": "Oberösterreich",
                        "postalCode": "4020",
                        "country": "AUT"
                    }
                ]
            },
            "search": {
                "mode": "include"
            }
        },
        {
            "fullUrl": "https://hapi.fhir.org/baseR4/MedicationRequest/AtEmedJourneyMrPlaneintrag0102",
            "resource": {
                "resourceType": "MedicationRequest",
                "id": "AtEmedJourneyMrPlaneintrag0102",
                "meta": {
                    "versionId": "1",
                    "lastUpdated": "2026-02-18T13:48:50.734+00:00",
                    "source": "#h6Tfd98McJrCMCbk",
                    "profile": [
                        "https://fhir.hl7.at/elga/emed/r4/StructureDefinition/at-emed-mr-planeintrag"
                    ]
                },
                "contained": [
                    {
                        "resourceType": "Medication",
                        "id": "InlineAtEmedJourneyMedicationMagistral02",
                        "meta": {
                            "profile": [
                                "https://fhir.hl7.at/elga/emed/r4/StructureDefinition/at-emed-medication"
                            ]
                        },
                        "text": {
                            "status": "additional",
                            "div": "<div xmlns=\"http://www.w3.org/1999/xhtml\"><p>Freitext-Informationen zur magistralen Anwendung.</p></div>"
                        },
                        "form": {
                            "coding": [
                                {
                                    "system": "https://termgit.elga.gv.at/CodeSystem/medikationdarreichungsform",
                                    "code": "100000073713",
                                    "display": "Salbe"
                                }
                            ]
                        },
                        "ingredient": [
                            {
                                "itemCodeableConcept": {
                                    "coding": [
                                        {
                                            "system": "https://termgit.elga.gv.at/CodeSystem/atc-deutsch-wido",
                                            "code": "A01AC03",
                                            "display": "Hydrocortison"
                                        }
                                    ]
                                },
                                "strength": {
                                    "numerator": {
                                        "value": 1,
                                        "unit": "%",
                                        "system": "http://unitsofmeasure.org",
                                        "code": "%"
                                    },
                                    "denominator": {
                                        "value": 100,
                                        "unit": "g",
                                        "system": "http://unitsofmeasure.org",
                                        "code": "g"
                                    }
                                }
                            },
                            {
                                "itemCodeableConcept": {
                                    "coding": [
                                        {
                                            "system": "https://termgit.elga.gv.at/CodeSystem/atc-deutsch-wido",
                                            "code": "A01AB18",
                                            "display": "Clotrimazol"
                                        }
                                    ]
                                },
                                "strength": {
                                    "numerator": {
                                        "value": 1,
                                        "unit": "%",
                                        "system": "http://unitsofmeasure.org",
                                        "code": "%"
                                    },
                                    "denominator": {
                                        "value": 100,
                                        "unit": "g",
                                        "system": "http://unitsofmeasure.org",
                                        "code": "g"
                                    }
                                }
                            },
                            {
                                "itemCodeableConcept": {
                                    "text": "Salbengrundlage"
                                },
                                "isActive": false,
                                "strength": {
                                    "numerator": {
                                        "value": 98,
                                        "unit": "g"
                                    },
                                    "denominator": {
                                        "value": 100,
                                        "unit": "g"
                                    }
                                }
                            }
                        ]
                    }
                ],
                "extension": [
                    {
                        "url": "http://hl7.org/fhir/5.0/StructureDefinition/extension-MedicationRequest.effectiveDosePeriod",
                        "valuePeriod": {
                            "start": "2026-01-28",
                            "end": "2026-02-28"
                        }
                    },
                    {
                        "url": "http://hl7.org/fhir/5.0/StructureDefinition/extension-MedicationRequest.renderedDosageInstruction",
                        "valueMarkdown": "1 täglich auftragen"
                    }
                ],
                "identifier": [
                    {
                        "value": "4713_202602280800000"
                    }
                ],
                "status": "active",
                "intent": "order",
                "category": [
                    {
                        "coding": [
                            {
                                "system": "https://fhir.hl7.at/elga/emed/r4/CodeSystem/MedicationRequestCategoryCS",
                                "code": "1"
                            }
                        ]
                    }
                ],
                "reportedReference": {
                    "reference": "Practitioner/AtEmedExamplePractitioner02"
                },
                "medicationReference": {
                    "reference": "#InlineAtEmedJourneyMedicationMagistral02"
                },
                "subject": {
                    "reference": "Patient/AtEmedExamplePatient01"
                },
                "authoredOn": "2026-01-28T08:00:00+00:00",
                "requester": {
                    "reference": "Practitioner/AtEmedExamplePractitioner01"
                },
                "note": [
                    {
                        "text": "Freitext Informationen zum Medikationsplaneintrag."
                    }
                ],
                "dosageInstruction": [
                    {
                        "text": "1 täglich auftragen",
                        "patientInstruction": "Abends sehr dünn auf die betroffene Stelle auftragen.",
                        "timing": {
                            "repeat": {
                                "frequency": 1,
                                "period": 1,
                                "periodUnit": "d"
                            }
                        },
                        "route": {
                            "coding": [
                                {
                                    "system": "https://termgit.elga.gv.at/CodeSystem-medikationartanwendung.html",
                                    "code": "100000073566",
                                    "display": "Anwendung auf der Haut"
                                }
                            ]
                        }
                    }
                ]
            },
            "search": {
                "mode": "include"
            }
        },
        {
            "fullUrl": "https://hapi.fhir.org/baseR4/Practitioner/AtEmedExamplePractitioner01",
            "resource": {
                "resourceType": "Practitioner",
                "id": "AtEmedExamplePractitioner01",
                "meta": {
                    "versionId": "1",
                    "lastUpdated": "2026-02-10T08:57:29.799+00:00",
                    "source": "#yUly1sggUdCSs0mz",
                    "profile": [
                        "http://hl7.at/fhir/HL7ATCoreProfiles/4.0.1/StructureDefinition/at-core-practitioner"
                    ]
                },
                "text": {
                    "status": "generated",
                    "div": "<div xmlns=\"http://www.w3.org/1999/xhtml\"><p class=\"res-header-id\"><b>Generated Narrative: Practitioner HL7ATCorePractitionerExample01</b></p><a name=\"HL7ATCorePractitionerExample01\"> </a><a name=\"hcHL7ATCorePractitionerExample01\"> </a><div style=\"display: inline-block; background-color: #d9e0e7; padding: 6px; margin: 4px; border: 1px solid #8da1b4; border-radius: 5px; line-height: 60%\"><p style=\"margin-bottom: 0px\"/><p style=\"margin-bottom: 0px\">Profile: <a href=\"StructureDefinition-at-core-practitioner.html\">HL7® AT Core Practitioner Profile</a></p></div><p><b>identifier</b>: <a href=\"http://terminology.hl7.org/7.0.0/NamingSystem-uri.html\" title=\"As defined by RFC 3986 (http://www.ietf.org/rfc/rfc3986.txt)(with many schemes defined in many RFCs). For OIDs and UUIDs, use the URN form (urn:oid:(note: lowercase) and urn:uuid:). See http://www.ietf.org/rfc/rfc3001.txt and http://www.ietf.org/rfc/rfc4122.txt \r\n\r\nThis oid is used as an identifier II.root to indicate the the extension is an absolute URI (technically, an IRI). Typically, this is used for OIDs and GUIDs. Note that when this OID is used with OIDs and GUIDs, the II.extension should start with urn:oid or urn:uuid: \r\n\r\nNote that this OID is created to aid with interconversion between CDA and FHIR - FHIR uses urn:ietf:rfc:3986 as equivalent to this OID. URIs as identifiers appear more commonly in FHIR.\r\n\r\nThis OID may also be used in CD.codeSystem.\">Uniform Resource Identifier (URI)</a>/urn:oid:1.2.40.0.34.99.4613.4, <code>urn:oid:1.2.40.0.10.1.4.3.2</code>/987654321</p><p><b>active</b>: true</p><p><b>name</b>: Melanie Musterärztin </p><p><b>telecom</b>: <a href=\"mailto:office@musterpraxis.at\">office@musterpraxis.at</a>, <a href=\"tel:+436500987654321\">+436500987654321</a></p><p><b>address</b>: Mozartgasse 8 Stiege 2 St. Wolfgang Salzburg 5350 AUT (work)</p><p><b>gender</b>: Female</p></div>"
                },
                "identifier": [
                    {
                        "system": "urn:ietf:rfc:3986",
                        "value": "urn:oid:1.2.40.0.34.99.4613.4",
                        "assigner": {
                            "display": "Bundesministerium für Gesundheit"
                        }
                    },
                    {
                        "system": "urn:oid:1.2.40.0.10.1.4.3.2",
                        "value": "987654321",
                        "assigner": {
                            "display": "Dachverband der österreichischen Sozialversicherungsträger"
                        }
                    }
                ],
                "active": true,
                "name": [
                    {
                        "family": "Musterärztin",
                        "given": [
                            "Melanie"
                        ],
                        "prefix": [
                            "Prof. Dr."
                        ]
                    }
                ],
                "telecom": [
                    {
                        "system": "email",
                        "value": "office@musterpraxis.at",
                        "use": "work"
                    },
                    {
                        "system": "phone",
                        "value": "+436500987654321",
                        "use": "work"
                    }
                ],
                "address": [
                    {
                        "use": "work",
                        "type": "both",
                        "line": [
                            "Mozartgasse 8 Stiege 2"
                        ],
                        "_line": [
                            {
                                "extension": [
                                    {
                                        "url": "http://hl7.org/fhir/StructureDefinition/iso21090-ADXP-streetName",
                                        "valueString": "Mozartgasse"
                                    },
                                    {
                                        "url": "http://hl7.org/fhir/StructureDefinition/iso21090-ADXP-houseNumber",
                                        "valueString": "8"
                                    },
                                    {
                                        "url": "http://hl7.org/fhir/StructureDefinition/iso21090-ADXP-additionalLocator",
                                        "valueString": "Stiege 2"
                                    },
                                    {
                                        "url": "http://hl7.at/fhir/HL7ATCoreProfiles/4.0.1/StructureDefinition/at-core-ext-address-additionalInformation",
                                        "valueString": "Barrierefreier Zugang"
                                    }
                                ]
                            }
                        ],
                        "city": "St. Wolfgang",
                        "state": "Salzburg",
                        "postalCode": "5350",
                        "country": "AUT"
                    }
                ],
                "gender": "female"
            },
            "search": {
                "mode": "include"
            }
        },
        {
            "fullUrl": "https://hapi.fhir.org/baseR4/MedicationRequest/AtEmedJourneyMrPlaneintrag0101",
            "resource": {
                "resourceType": "MedicationRequest",
                "id": "AtEmedJourneyMrPlaneintrag0101",
                "meta": {
                    "versionId": "1",
                    "lastUpdated": "2026-02-18T13:48:50.734+00:00",
                    "source": "#h6Tfd98McJrCMCbk",
                    "profile": [
                        "https://fhir.hl7.at/elga/emed/r4/StructureDefinition/at-emed-mr-planeintrag"
                    ]
                },
                "contained": [
                    {
                        "resourceType": "Medication",
                        "id": "ContainedMedicationMagistral01",
                        "meta": {
                            "profile": [
                                "https://fhir.hl7.at/elga/emed/r4/StructureDefinition/at-emed-medication"
                            ]
                        },
                        "code": {
                            "coding": [
                                {
                                    "system": "https://termgit.elga.gv.at/CodeSystem/asp-liste",
                                    "code": "2443061",
                                    "display": "EBETREXAT TBL 10MG"
                                }
                            ]
                        }
                    }
                ],
                "extension": [
                    {
                        "url": "http://hl7.org/fhir/5.0/StructureDefinition/extension-MedicationRequest.effectiveDosePeriod",
                        "valuePeriod": {
                            "start": "2026-01-28",
                            "end": "2026-02-28"
                        }
                    },
                    {
                        "url": "http://hl7.org/fhir/5.0/StructureDefinition/extension-MedicationRequest.renderedDosageInstruction",
                        "valueMarkdown": "1 Kapsel täglich morgens"
                    }
                ],
                "identifier": [
                    {
                        "value": "4712_202602280800000"
                    }
                ],
                "status": "active",
                "intent": "order",
                "category": [
                    {
                        "coding": [
                            {
                                "system": "https://fhir.hl7.at/elga/emed/r4/CodeSystem/MedicationRequestCategoryCS",
                                "code": "1"
                            }
                        ]
                    }
                ],
                "reportedBoolean": false,
                "medicationReference": {
                    "reference": "#ContainedMedicationMagistral01"
                },
                "subject": {
                    "reference": "Patient/AtEmedExamplePatient01"
                },
                "authoredOn": "2026-01-28T08:00:00+00:00",
                "requester": {
                    "reference": "Practitioner/AtEmedExamplePractitioner01"
                },
                "note": [
                    {
                        "text": "Freitext Informationen zum Medikationsplaneintrag."
                    }
                ],
                "dosageInstruction": [
                    {
                        "text": "1 Kapsel täglich morgens",
                        "patientInstruction": "Nehmen Sie die Kapsel jeden Morgen mit ausreichend Flüssigkeit ein.",
                        "timing": {
                            "repeat": {
                                "frequency": 1,
                                "period": 1,
                                "periodUnit": "d"
                            }
                        },
                        "route": {
                            "coding": [
                                {
                                    "system": "https://termgit.elga.gv.at/CodeSystem-medikationartanwendung.html",
                                    "code": "100000073619",
                                    "display": "zum Einnehmen"
                                }
                            ]
                        },
                        "doseAndRate": [
                            {
                                "doseQuantity": {
                                    "value": 5,
                                    "unit": "mg",
                                    "system": "http://unitsofmeasure.org",
                                    "code": "mg"
                                }
                            }
                        ]
                    }
                ]
            },
            "search": {
                "mode": "include"
            }
        }
    ]
}